File: sample/CsV3Sb5_0T_20241208_2θ_ω.asc
*TYPE		=  Raw
*CLASS		=  ASCII CLASS
*SAMPLE		=
*COMMENT	=
*FNAME		=  CsV3Sb5_0T_20241208_2θ_ω.asc
*DATE		=  08-Dec-24 16:45

*GROUP_COUNT	=  1
*GONIO		=  SmartLab, 0.000000
*ATTACHMENT	=  Z-φステージ
*ASC		=  0, 0, 0.000000, 0.000000
*I_MONOCHRO	=  Soller_slit_5.0deg, 0.000000
*FILTER		=  Cu_K-beta
*C_MONOCHRO	=  None, 0.000000
*SLIT_NAME	=  0, 入射スリット
*SLIT_NAME	=  1, 受光スリット1
*SLIT_NAME	=  2, 受光スリット2
*COUNTER	=  D/teX Ultra 250, 0
*POS_FORMAT	=  0
*SCAN_AXIS	=  2Theta/Omega
*MEAS_MODE	=  Continuous Scanning
*TARGET		=  29
*XRAY_CHAR	=  K-ALPHA
*WAVE_LENGTH1	=  1.54059
*WAVE_LENGTH2	=  1.54441
*THICKNESS	=  0, 0.000000
*MU		=  0, 0.000000
*SCAN_MODE	=  2Theta/Omega
*SPEED_DIM	=  sec./step
*XUNIT		=  deg.
*YUNIT		=  counts
*SCALE_MODE	=  1
*REP_COUNT	=  0
*SE_COUNT	=  0
*STD_MATERIAL	=  Unknown, Unknown, 0.000000, 0.000000, 0.000000, 0.000000, 0.000000, 0.000000
*LATT_CONS	=  0, Unknown, Unknown, 0.000000, 0.000000, 0.000000, 0.000000, 0.000000, 0.000000
*SEC_COUNT	=  1
*TSPEC_SIZE	=  0
*EXTRA_SIZE	=  0
*MEMO		=

*BEGIN
*GROUP		=  0
*START		=  5
*STOP		=  60
*STEP		=  0.02
*OFFSET		=  0.000000
*SPEED		=  0.235364
*SLIT_SPEC	=  0, 1/2deg, 1, 0.000000
*SLIT_SPEC	=  1, 20.000mm, 20, 0.000000
*SLIT_SPEC	=  2, 20.000mm, 20, 0.000000
*KV		=  40
*MA		=  30
*LOW		=  0.000000
*HIGH		=  0.000000
*CTEMPER	=  0, 0.000000
*CTEMPER	=  1, 0.000000
*CTEMPER	=  2, 0.000000
*PAREX		=  0, 0.000000
*PAREX		=  1, 0.000000
*PAREX		=  2, 0.000000
*PAREX		=  3, 0.000000
*PAREX		=  4, 0.000000
*PAREX		=  5, 0.000000
*PAREX		=  6, 0.000000
*PAREX		=  7, 0.000000
*PAREX		=  8, 0.000000
*PAREX		=  9, 0.000000
*PAREX		=  10, 0.000000
*PAREX		=  11, 0.000000
*PAREX		=  12, 0.000000
*PAREX		=  13, 0.000000
*PAREX		=  14, 0.000000
*PAREX		=  15, 0.000000
*FULL_SCALE	=  87780.5
*INDEX		=  0, 0, 0
*COUNT		=  2751
3122, 3111, 3107, 3161
3120, 3075, 3054, 3092
3078, 3145, 3126, 3078
3083, 3086, 3025, 3080
3048, 3040, 3111, 3121
3014, 3121, 3068, 3061
3165, 3032, 3095, 3135
3005, 3019, 3068, 3100
2957, 2986, 2994, 3032
3066, 3090, 3086, 3049
3001, 3119, 3052, 2992
2971, 2984, 3009, 2959
2852, 2985, 3004, 2976
2965, 2979, 2946, 2961
2996, 2972, 2969, 2963
3014, 3034, 2988, 2911
3009, 3005, 2980, 2909
2895, 2892, 2989, 2963
2834, 3037, 2989, 2934
2838, 2993, 2978, 2903
2967, 2895, 2965, 2992
2936, 2917, 2882, 2928
2916, 2825, 2858, 2895
2881, 2898, 2883, 2886
2898, 2983, 2882, 2855
2829, 2889, 2815, 2861
2890, 2886, 2863, 2818
2856, 2866, 2810, 2677
2772, 2749, 2800, 2870
2804, 2740, 2743, 2908
2883, 2871, 2710, 2706
2733, 2735, 2754, 2717
2837, 2706, 2765, 2727
2721, 2856, 2684, 2713
2739, 2700, 2727, 2663
2758, 2666, 2744, 2710
2791, 2682, 2747, 2730
2703, 2654, 2660, 2670
2698, 2661, 2720, 2632
2609, 2716, 2696, 2650
2708, 2753, 2643, 2638
2655, 2604, 2645, 2630
2661, 2653, 2624, 2617
2512, 2612, 2667, 2553
2656, 2568, 2579, 2584
2615, 2619, 2551, 2559
2545, 2514, 2547, 2593
2530, 2629, 2517, 2534
2529, 2512, 2471, 2528
2508, 2528, 2369, 2595
2458, 2521, 2477, 2498
2438, 2522, 2548, 2462
2458, 2373, 2431, 2506
2545, 2467, 2468, 2435
2575, 2505, 2501, 2469
2454, 2491, 2460, 2733
3385, 5357, 4960, 3550
2657, 2528, 2420, 2532
2421, 2368, 2320, 2347
2382, 2356, 2333, 2366
2324, 2302, 2285, 2327
2318, 2264, 2305, 2390
2318, 2362, 2314, 2284
2307, 2313, 2321, 2299
2278, 2307, 2310, 2284
2288, 2311, 2274, 2247
2217, 2231, 2252, 2195
2232, 2221, 2238, 2253
2176, 2206, 2237, 2162
2158, 2257, 2172, 2118
2154, 2136, 2196, 2224
2182, 2190, 2142, 2125
2134, 2115, 2150, 2121
2066, 2188, 2104, 2084
2122, 2169, 2134, 2089
2096, 2095, 2014, 2027
2083, 2023, 2014, 2119
2030, 1978, 2000, 1994
2046, 2002, 2059, 1929
1937, 2013, 2112, 2041
2041, 2022, 2018, 1951
2020, 1961, 1929, 1974
2046, 2064, 1989, 1973
2022, 1895, 1951, 1947
1983, 1907, 1931, 1964
1936, 1920, 1869, 1963
1907, 1991, 1928, 1897
1888, 1977, 1894, 1930
1801, 1956, 1826, 1938
1874, 1934, 1831, 1904
1888, 1818, 1776, 1850
1854, 1873, 1839, 1821
1755, 1807, 1751, 1849
1876, 1793, 1785, 1863
1777, 1769, 1767, 1754
1724, 1819, 1793, 1741
1692, 1723, 1784, 1790
1732, 1748, 1743, 1664
1793, 1704, 1700, 1720
1724, 1684, 1715, 1685
1680, 1708, 1706, 1742
1678, 1733, 1637, 1686
1653, 1722, 1672, 1730
1710, 1672, 1654, 1694
1702, 1596, 1660, 1635
1681, 1612, 1568, 1640
1615, 1620, 1547, 1590
1590, 1635, 1590, 1622
1543, 1616, 1640, 1599
1591, 1507, 1539, 1621
1611, 1511, 1571, 1543
1557, 1541, 1608, 1513
1507, 1508, 1489, 1500
1509, 1468, 1469, 1541
1461, 1501, 1526, 1504
1460, 1531, 1496, 1487
1453, 1499, 1534, 1441
1564, 1380, 1436, 1491
1409, 1436, 1388, 1354
1452, 1410, 1481, 1439
1447, 1445, 1370, 1426
1411, 1409, 1406, 1353
1404, 1382, 1359, 1393
1371, 1364, 1366, 1388
1361, 1332, 1373, 1406
1323, 1354, 1353, 1405
1347, 1358, 1302, 1340
1328, 1343, 1309, 1395
1313, 1320, 1244, 1282
1218, 1346, 1282, 1205
1257, 1316, 1313, 1285
1283, 1349, 1297, 1286
1240, 1246, 1185, 1318
1307, 1297, 1249, 1244
1223, 1316, 1357, 1311
1253, 1261, 1184, 1247
1252, 1277, 1278, 1286
1240, 1270, 1295, 1258
1266, 1224, 1258, 1190
1199, 1242, 1150, 1191
1237, 1193, 1243, 1177
1237, 1232, 1180, 1185
1234, 1210, 1172, 1196
1170, 1141, 1182, 1171
1144, 1117, 1225, 1129
1136, 1174, 1185, 1131
1192, 1124, 1126, 1110
1098, 1085, 1142, 1170
1173, 1058, 1170, 1129
1156, 1132, 1129, 1133
1122, 1061, 1084, 1053
1109, 1131, 1150, 1135
1096, 1124, 1068, 1051
1060, 1081, 1054, 1071
984, 1106, 1033, 1052
1115, 1083, 1083, 1064
1033, 971, 1047, 1061
1108, 1019, 1048, 1072
1038, 1042, 995, 1055
1052, 997, 1019, 1043
1075, 1046, 997, 1062
972, 1043, 1044, 1039
1054, 969, 994, 954
1024, 988, 1067, 1014
995, 1002, 985, 1025
1019, 992, 998, 1011
1016, 987, 1000, 987
984, 1014, 948, 1014
1031, 942, 984, 959
1004, 984, 976, 946
1000, 996, 1001, 1011
1001, 955, 954, 888
985, 934, 978, 982
930, 972, 906, 930
978, 978, 1003, 916
1110, 1189, 1381, 1209
1044, 1091, 925, 938
903, 899, 927, 948
933, 948, 883, 864
926, 962, 916, 897
890, 882, 860, 913
912, 910, 884, 905
899, 896, 888, 882
917, 819, 917, 912
860, 874, 924, 895
822, 862, 823, 865
882, 839, 816, 875
875, 897, 909, 823
847, 858, 878, 809
856, 862, 845, 839
792, 839, 832, 836
799, 795, 791, 804
820, 842, 828, 807
847, 816, 835, 791
845, 827, 807, 810
772, 772, 802, 807
808, 751, 820, 772
794, 817, 784, 810
849, 782, 807, 812
798, 800, 810, 772
756, 778, 773, 818
774, 758, 766, 843
791, 791, 807, 785
813, 794, 794, 780
766, 817, 721, 725
762, 747, 760, 776
729, 752, 743, 732
757, 828, 769, 727
704, 737, 736, 739
730, 710, 684, 754
729, 745, 740, 714
714, 745, 717, 753
758, 744, 716, 756
743, 705, 663, 733
693, 753, 711, 763
714, 693, 709, 730
735, 685, 691, 665
700, 658, 693, 672
713, 699, 670, 698
702, 673, 651, 663
686, 703, 702, 668
698, 727, 702, 694
701, 723, 634, 677
656, 681, 657, 665
651, 660, 637, 633
650, 649, 665, 693
670, 688, 643, 622
722, 657, 643, 664
626, 637, 692, 664
644, 666, 643, 631
631, 637, 640, 621
661, 635, 681, 602
625, 684, 629, 628
661, 622, 642, 643
634, 642, 629, 653
577, 580, 623, 617
653, 606, 606, 634
613, 588, 599, 613
604, 587, 632, 563
602, 643, 597, 616
605, 603, 614, 583
602, 600, 559, 608
617, 549, 584, 596
553, 603, 568, 619
567, 599, 608, 588
577, 583, 573, 590
576, 562, 583, 566
589, 576, 560, 551
580, 572, 589, 549
568, 571, 614, 553
528, 578, 599, 599
543, 560, 538, 557
590, 557, 580, 555
540, 561, 526, 540
518, 587, 574, 529
526, 519, 550, 536
543, 557, 499, 548
522, 576, 509, 545
520, 567, 537, 544
546, 546, 532, 532
529, 516, 493, 519
537, 519, 527, 518
486, 455, 487, 512
534, 552, 480, 529
524, 535, 538, 548
509, 504, 490, 479
514, 508, 488, 530
549, 508, 533, 486
512, 486, 513, 523
500, 477, 496, 491
501, 530, 517, 509
531, 516, 499, 493
487, 503, 499, 439
472, 494, 502, 475
467, 514, 542, 488
466, 512, 510, 513
448, 476, 499, 471
520, 495, 471, 466
462, 440, 490, 507
502, 495, 438, 492
469, 453, 430, 462
435, 450, 487, 465
453, 431, 477, 450
467, 442, 460, 441
442, 447, 472, 457
440, 431, 492, 480
479, 475, 459, 444
409, 478, 449, 489
474, 415, 444, 412
459, 451, 429, 442
451, 467, 421, 477
426, 436, 433, 465
443, 436, 440, 421
455, 492, 417, 437
427, 469, 484, 454
432, 449, 459, 457
502, 650, 666, 545
471, 534, 532, 423
447, 425, 445, 440
434, 423, 410, 455
440, 420, 391, 411
378, 417, 427, 415
405, 405, 413, 407
445, 364, 406, 378
431, 405, 404, 435
393, 397, 395, 395
413, 411, 437, 423
405, 406, 377, 407
402, 390, 435, 402
396, 421, 419, 390
367, 367, 387, 386
405, 427, 395, 393
396, 402, 378, 371
378, 375, 409, 364
367, 375, 366, 397
384, 348, 371, 388
337, 368, 364, 371
377, 349, 362, 356
365, 395, 388, 366
375, 378, 359, 346
355, 364, 383, 383
410, 362, 357, 383
379, 366, 349, 379
357, 357, 366, 356
334, 349, 364, 379
357, 385, 396, 368
342, 363, 345, 358
374, 342, 358, 380
364, 376, 376, 372
396, 360, 348, 370
368, 389, 377, 358
360, 356, 342, 355
363, 359, 353, 357
365, 360, 356, 362
341, 362, 370, 376
348, 373, 345, 342
372, 330, 357, 375
359, 302, 341, 327
339, 336, 341, 331
334, 332, 319, 337
353, 322, 356, 356
360, 332, 333, 365
329, 315, 325, 308
331, 303, 329, 347
309, 319, 338, 330
339, 331, 336, 323
309, 315, 331, 312
318, 296, 311, 348
302, 321, 354, 316
320, 344, 321, 306
334, 323, 321, 335
329, 336, 311, 322
330, 316, 309, 327
322, 322, 294, 303
316, 323, 338, 305
319, 307, 301, 308
301, 300, 311, 285
294, 308, 286, 327
315, 322, 296, 355
340, 316, 324, 343
298, 297, 332, 289
333, 303, 316, 310
306, 281, 305, 303
303, 289, 287, 299
274, 296, 301, 309
316, 288, 310, 311
331, 314, 300, 303
287, 317, 303, 270
268, 317, 276, 292
287, 277, 291, 304
306, 291, 311, 300
306, 323, 354, 361
398, 403, 307, 314
284, 295, 293, 305
302, 294, 283, 286
262, 264, 304, 273
283, 284, 258, 269
281, 292, 282, 280
288, 268, 291, 295
283, 296, 261, 284
265, 265, 264, 267
277, 299, 300, 267
303, 308, 272, 279
258, 291, 294, 262
260, 261, 286, 261
232, 233, 248, 270
279, 235, 290, 269
252, 284, 267, 271
255, 290, 259, 288
259, 284, 257, 274
257, 257, 269, 300
254, 254, 243, 268
259, 253, 264, 263
273, 253, 282, 258
289, 244, 264, 275
246, 258, 272, 266
244, 245, 276, 255
262, 259, 246, 233
271, 258, 244, 263
244, 237, 240, 253
262, 282, 275, 263
255, 242, 264, 240
286, 259, 266, 258
241, 275, 264, 276
270, 264, 259, 283
291, 306, 288, 294
296, 259, 258, 285
286, 271, 294, 273
298, 303, 284, 274
301, 285, 280, 289
278, 299, 294, 283
268, 262, 279, 292
270, 288, 301, 288
300, 303, 298, 286
262, 267, 323, 321
300, 322, 305, 325
350, 327, 354, 373
402, 457, 545, 709
812, 875, 927, 1200
1883, 3944, 6975, 10318
17217, 16782, 7927, 5352
6173, 9108, 8474, 3682
1597, 981, 763, 617
552, 505, 436, 406
384, 344, 339, 331
301, 318, 326, 297
293, 306, 311, 324
278, 302, 296, 315
295, 314, 272, 322
268, 250, 272, 262
252, 268, 266, 271
261, 283, 268, 271
272, 244, 259, 245
242, 268, 261, 235
248, 249, 270, 250
246, 252, 271, 263
233, 242, 254, 247
234, 238, 202, 253
254, 232, 258, 232
242, 208, 273, 243
250, 248, 240, 225
221, 237, 220, 228
281, 199, 236, 244
240, 256, 215, 245
202, 230, 227, 232
234, 246, 217, 249
236, 223, 246, 232
213, 207, 201, 224
235, 203, 196, 211
228, 246, 225, 258
241, 241, 213, 232
212, 238, 237, 228
182, 232, 202, 237
219, 222, 232, 234
195, 199, 211, 240
238, 237, 221, 215
236, 242, 209, 233
237, 190, 216, 212
209, 212, 186, 213
219, 224, 211, 217
205, 194, 218, 213
217, 203, 222, 204
215, 223, 181, 214
204, 205, 183, 204
219, 226, 193, 205
206, 213, 232, 208
215, 178, 221, 219
199, 210, 219, 219
205, 206, 203, 196
189, 213, 207, 188
206, 212, 207, 217
212, 189, 202, 218
213, 215, 187, 197
195, 207, 176, 201
186, 176, 193, 189
172, 175, 190, 219
208, 237, 217, 204
214, 202, 168, 168
196, 210, 184, 202
190, 205, 179, 190
205, 195, 203, 221
186, 227, 181, 190
192, 176, 203, 181
213, 202, 187, 203
187, 204, 198, 210
166, 202, 211, 203
209, 180, 198, 177
187, 198, 187, 181
181, 187, 200, 191
196, 171, 209, 180
162, 177, 195, 200
205, 175, 166, 176
181, 202, 207, 163
171, 190, 204, 197
182, 194, 206, 203
209, 181, 180, 192
200, 198, 184, 195
203, 172, 182, 173
206, 194, 184, 171
198, 172, 191, 209
188, 176, 220, 183
194, 203, 196, 192
198, 172, 162, 193
181, 186, 167, 165
179, 161, 175, 196
179, 189, 160, 173
168, 196, 174, 183
162, 164, 173, 178
164, 185, 192, 174
173, 163, 173, 170
161, 189, 175, 180
167, 198, 175, 204
162, 156, 181, 169
166, 170, 191, 143
163, 178, 173, 156
188, 169, 164, 166
163, 174, 188, 156
170, 192, 178, 161
178, 169, 160, 172
183, 161, 152, 200
187, 179, 162, 181
168, 154, 162, 159
187, 167, 151, 175
175, 167, 184, 148
169, 177, 181, 161
177, 171, 183, 172
186, 191, 174, 149
164, 165, 164, 184
155, 168, 164, 171
162, 171, 161, 183
176, 179, 168, 179
172, 168, 170, 174
163, 179, 168, 172
178, 179, 165, 167
180, 178, 154, 165
176, 153, 173, 179
170, 149, 167, 144
166, 165, 170, 142
168, 152, 152, 154
180, 175, 199, 170
158, 190, 161, 166
169, 172, 166, 162
182, 170, 169, 160
178, 146, 162, 164
171, 164, 159, 184
175, 193, 212, 205
217, 212, 265, 382
526, 685, 1072, 1289
788, 495, 415, 405
582, 715, 651, 398
258, 216, 167, 193
184, 183, 162, 155
152, 160, 162, 181
176, 171, 157, 167
165, 171, 176, 157
149, 154, 168, 168
190, 154, 166, 161
148, 161, 160, 156
155, 147, 129, 144
173, 138, 171, 170
152, 177, 163, 170
154, 169, 184, 161
176, 160, 172, 176
170, 145, 156, 168
194, 166, 170, 168
164, 161, 168, 153
161, 189, 162, 184
141, 156, 180, 170
142, 153, 166, 144
143, 143, 153, 163
156, 166, 161, 155
161, 153, 159, 156
152, 145, 166, 152
157, 162, 144, 147
147, 143, 172, 178
137, 162, 145, 141
159, 155, 168, 164
154, 167, 145, 157
143, 162, 151, 145
155, 161, 141, 153
150, 158, 149, 147
150, 150, 163, 171
176, 163, 162, 134
140, 179, 153, 137
147, 167, 129, 130
158, 157, 144, 166
145, 164, 148, 153
148, 138, 156, 139
143, 148, 123, 147
141, 156, 152, 175
149, 157, 175, 145
158, 151, 148, 143
149, 168, 150, 146
135, 143, 147, 151
160, 142, 144, 145
144, 143, 159, 147
152, 172, 160, 131
164, 147, 156, 139
152, 135, 151, 158
136, 150, 158, 160
152, 164, 117, 158
149, 141, 138, 142
166, 145, 137, 160
147, 130, 155, 146
136, 130, 151, 124
137, 128, 160, 138
132, 147, 155, 128
128, 139, 127, 124
144, 144, 149, 147
134, 137, 155, 135
172, 148, 147, 155
153, 139, 146, 138
160, 135, 161, 152
135, 168, 147, 132
154, 152, 141, 139
150, 151, 130, 146
156, 126, 146, 151
142, 163, 152, 155
141, 143, 145, 141
141, 161, 131, 137
127, 160, 138, 134
149, 145, 131, 161
164, 155, 164, 143
139, 143, 140, 134
150, 141, 147, 138
129, 164, 143, 130
144, 169, 134, 139
149, 147, 134, 155
151, 148, 150, 152
136, 137, 151, 151
142, 165, 149, 146
146, 156, 144, 158
148, 154, 147, 143
144, 152, 164, 125
134, 142, 151, 157
152, 151, 149, 153
137, 169, 128, 155
125, 153, 155, 150
145, 176, 128, 161
155, 137, 147, 159
157, 155, 149, 137
130, 157, 158, 154
142, 137, 145, 172
156, 150, 159, 148
157, 134, 138, 149
144, 149, 154, 181
167, 162, 153, 146
142, 146, 160, 159
163, 154, 126, 135
131, 155, 139, 168
128, 134, 136, 154
172, 151, 141, 176
190, 137, 165, 139
161, 146, 133, 155
153, 171, 137, 139
147, 144, 155, 129
159, 157, 154, 146
143, 155, 138, 150
172, 170, 166, 158
148, 163, 163, 149
166, 155, 157, 158
161, 155, 154, 134
141, 153, 146, 140
132, 137, 151, 172
144, 148, 146, 154
157, 156, 143, 169
155, 158, 149, 161
169, 142, 159, 149
147, 142, 165, 169
171, 162, 151, 151
135, 144, 150, 150
163, 157, 153, 156
150, 142, 141, 150
171, 158, 170, 166
147, 169, 151, 161
139, 134, 145, 149
160, 145, 156, 169
140, 163, 165, 146
146, 172, 168, 179
164, 179, 154, 161
195, 195, 229, 247
238, 179, 161, 166
185, 209, 172, 201
205, 172, 187, 158
148, 134, 178, 164
152, 168, 176, 169
145, 182, 162, 183
154, 159, 152
*END

*EOF