File: sample/CsV3Sb5_0T_38-40_20241208.dat
# Scan Date   : 12/08/24 16:57:25 - 12/08/24 17:08:53
# File Sample :
# File Memo   :
# User Comment :
# Optical     : @集中法
# Counter     : D/teX Ultra 250|D/teX Ultra 250
# Condition 2θ/θ                     : 0.0000000000 deg (offset -),
# Condition 2θ                       : 0.0000000000 deg (offset -0.161),
# Condition ω                        : 0.0000000000 deg (offset 0.0255),
# Condition φ                        : 0.0000000000 deg (offset 0.0000000000),
# Condition Z                        : 0.30216 mm (offset -),
# Condition Rx                       : 0.1089 deg (offset -),
# Condition Ry                       : -2.3048 deg (offset -),
# Condition 2θ/ω                     : 0.0000000000 deg (offset -),
# Condition θs                       : 0.0000000000 deg (offset 0.0255),
# Condition θd                       : 0.0000000000 deg (offset -0.1865),
# Condition Ts                       : 0.12488 mm (offset -),
# Condition CBO選択スリット                : BB  (offset -),
# Condition M                        : 0.0000000000 pulse (offset -),
# Condition 入射平行スリット                 : Soller_slit_5.0deg  (offset -),
# Condition 入射スリット                   : 1/2deg  (offset -),
# Condition Zs                       : -0.19094 mm (offset -),
# Condition 入射光学素子                   : 0.0000000000  (offset -),
# Condition 長手制限スリット                 : 10.0mm  (offset -),
# Condition センタースリット                 : None  (offset -),
# Condition フィルター                    : Cu_K-beta  (offset -),
# Condition 受光スリット1                  : 20.000mm  (offset -),
# Condition 受光スリット2                  : 20.000mm  (offset -),
# Condition 受光光学素子                   : No_unit  (offset -),
# Condition 受光平行スリット                 : Soller_slit_5.0deg  (offset -),
# Condition 調整用受光スリット                : None  (offset -),
# Condition Zd                       : 0.27437 mm (offset -),
# Condition アッテネータ                   : Open  (offset -),
# Condition 検出器モノクロメータ               : None  (offset -),
# Condition モノクロメータスリット              : None  (offset -),
# Condition プライマリビーム                 : None  (offset -),
# Condition PHA                      : 35 div (offset -),
# Data X axis : 2θ/ω
# Scan mode   : CONTINUOUS
# Scan start  : 38 deg
# Scan stop   : 40 deg
# Scan step   : 0.004 deg
# Scan speed  : 0.500968 deg/min
# Scan time per step : 0.479
# Scan Y unit : counts
# Scan Date and Time: 12/08/24 16:57:25 - 17:08:53
38.0000 1137.615 545.0000 1.0000
38.0040 1141.790 547.0000 1.0000
38.0080 1198.148 574.0000 1.0000
38.0120 1204.411 577.0000 1.0000
38.0160 1196.061 573.0000 1.0000
38.0200 1183.537 567.0000 1.0000
38.0240 1200.236 575.0000 1.0000
38.0280 1235.721 592.0000 1.0000
38.0320 1258.682 603.0000 1.0000
38.0360 1208.585 579.0000 1.0000
38.0400 1225.284 587.0000 1.0000
38.0440 1223.197 586.0000 1.0000
38.0480 1200.236 575.0000 1.0000
38.0520 1166.838 559.0000 1.0000
38.0560 1198.148 574.0000 1.0000
38.0600 1235.721 592.0000 1.0000
38.0640 1256.595 602.0000 1.0000
38.0680 1237.808 593.0000 1.0000
38.0720 1239.896 594.0000 1.0000
38.0760 1256.595 602.0000 1.0000
38.0800 1231.546 590.0000 1.0000
38.0840 1260.769 604.0000 1.0000
38.0880 1237.808 593.0000 1.0000
38.0920 1248.245 598.0000 1.0000
38.0960 1277.468 612.0000 1.0000
38.1000 1227.372 588.0000 1.0000
38.1040 1191.886 571.0000 1.0000
38.1080 1262.857 605.0000 1.0000
38.1120 1310.866 628.0000 1.0000
38.1160 1193.974 572.0000 1.0000
38.1200 1171.013 561.0000 1.0000
38.1240 1196.061 573.0000 1.0000
38.1280 1246.158 597.0000 1.0000
38.1320 1223.197 586.0000 1.0000
38.1360 1258.682 603.0000 1.0000
38.1400 1300.429 623.0000 1.0000
38.1440 1237.808 593.0000 1.0000
38.1480 1269.119 608.0000 1.0000
38.1520 1181.450 566.0000 1.0000
38.1560 1239.896 594.0000 1.0000
38.1600 1289.993 618.0000 1.0000
38.1640 1227.372 588.0000 1.0000
38.1680 1281.643 614.0000 1.0000
38.1720 1296.255 621.0000 1.0000
38.1760 1256.595 602.0000 1.0000
38.1800 1298.342 622.0000 1.0000
38.1840 1331.740 638.0000 1.0000
38.1880 1315.041 630.0000 1.0000
38.1920 1292.080 619.0000 1.0000
38.1960 1294.167 620.0000 1.0000
38.2000 1287.905 617.0000 1.0000
38.2040 1321.303 633.0000 1.0000
38.2080 1292.080 619.0000 1.0000
38.2120 1338.002 641.0000 1.0000
38.2160 1308.779 627.0000 1.0000
38.2200 1398.536 670.0000 1.0000
38.2240 1323.390 634.0000 1.0000
38.2280 1333.827 639.0000 1.0000
38.2320 1350.526 647.0000 1.0000
38.2360 1340.089 642.0000 1.0000
38.2400 1225.284 587.0000 1.0000
38.2440 1346.351 645.0000 1.0000
38.2480 1331.740 638.0000 1.0000
38.2520 1325.478 635.0000 1.0000
38.2560 1285.818 616.0000 1.0000
38.2600 1315.041 630.0000 1.0000
38.2640 1306.692 626.0000 1.0000
38.2680 1325.478 635.0000 1.0000
38.2720 1377.662 660.0000 1.0000
38.2760 1379.749 661.0000 1.0000
38.2800 1400.623 671.0000 1.0000
38.2840 1459.069 699.0000 1.0000
38.2880 1440.283 690.0000 1.0000
38.2920 1398.536 670.0000 1.0000
38.2960 1350.526 647.0000 1.0000
38.3000 1413.147 677.0000 1.0000
38.3040 1492.467 715.0000 1.0000
38.3080 1479.943 709.0000 1.0000
38.3120 1461.157 700.0000 1.0000
38.3160 1463.244 701.0000 1.0000
38.3200 1488.292 713.0000 1.0000
38.3240 1540.477 738.0000 1.0000
38.3280 1519.603 728.0000 1.0000
38.3320 1575.962 755.0000 1.0000
38.3360 1527.952 732.0000 1.0000
38.3400 1561.350 748.0000 1.0000
38.3440 1571.787 753.0000 1.0000
38.3480 1669.893 800.0000 1.0000
38.3520 1621.884 777.0000 1.0000
38.3560 1665.719 798.0000 1.0000
38.3600 1713.728 821.0000 1.0000
38.3640 1726.252 827.0000 1.0000
38.3680 1816.009 870.0000 1.0000
38.3720 1916.203 918.0000 1.0000
38.3760 1957.950 938.0000 1.0000
38.3800 1978.824 948.0000 1.0000
38.3840 2141.638 1026 1.0000
38.3880 2164.599 1037 1.0000
38.3920 2143.726 1027 1.0000
38.3960 2233.482 1070 1.0000
38.4000 2375.423 1138 1.0000
38.4040 2502.753 1199 1.0000
38.4080 2590.422 1241 1.0000
38.4120 2625.907 1258 1.0000
38.4160 2644.694 1267 1.0000
38.4200 2845.081 1363 1.0000
38.4240 2955.711 1416 1.0000
38.4280 3062.167 1467 1.0000
38.4320 3168.623 1518 1.0000
38.4360 3208.283 1537 1.0000
38.4400 3295.952 1579 1.0000
38.4440 3431.631 1644 1.0000
38.4480 3588.183 1719 1.0000
38.4520 3513.038 1683 1.0000
38.4560 3636.193 1742 1.0000
38.4600 3669.591 1758 1.0000
38.4640 3805.269 1823 1.0000
38.4680 3878.327 1858 1.0000
38.4720 3840.755 1840 1.0000
38.4760 4005.657 1919 1.0000
38.4800 4112.112 1970 1.0000
38.4840 4206.044 2015 1.0000
38.4880 4421.043 2118 1.0000
38.4920 4661.090 2233 1.0000
38.4960 4842.691 2320 1.0000
38.5000 5084.825 2436 1.0000
38.5040 5402.105 2588 1.0000
38.5080 5932.296 2842 1.0000
38.5120 6514.671 3121 1.0000
38.5160 6898.747 3305 1.0000
38.5200 7838.062 3755 1.0000
38.5240 8775.289 4204 1.0000
38.5280 10211.398 4892 1.0000
38.5320 12004.446 5751 1.0000
38.5360 14008.318 6711 1.0000
38.5400 16406.702 7860 1.0000
38.5440 19120.279 9160 1.0000
38.5480 21996.670 10538 1.0000
38.5520 24766.605 11865 1.0000
38.5560 26801.788 12840 1.0000
38.5600 28951.776 13870 1.0000
38.5640 31471.227 15077 1.0000
38.5680 33846.650 16215 1.0000
38.5720 36228.336 17356 1.0000
38.5760 39136.038 18749 1.0000
38.5800 42642.814 20429 1.0000
38.5840 47305.991 22663 1.0000
38.5880 53200.714 25487 1.0000
38.5920 59711.211 28606 1.0000
38.5960 66883.403 32042 1.0000
38.6000 73788.412 35350 1.0000
38.6040 79818.814 38239 1.0000
38.6080 83989.373 40237 1.0000
38.6120 84125.051 40302 1.0000
38.6160 80480.509 38556 1.0000
38.6200 73400.161 35164 1.0000
38.6240 64303.418 30806 1.0000
38.6280 53851.973 25799 1.0000
38.6320 45329.255 21716 1.0000
38.6360 38098.616 18252 1.0000
38.6400 32706.948 15669 1.0000
38.6440 28834.883 13814 1.0000
38.6480 25927.181 12421 1.0000
38.6520 24211.366 11599 1.0000
38.6560 23332.585 11178 1.0000
38.6600 22572.783 10814 1.0000
38.6640 22698.025 10874 1.0000
38.6680 22589.482 10822 1.0000
38.6720 22979.820 11009 1.0000
38.6760 24040.202 11517 1.0000
38.6800 25547.281 12239 1.0000
38.6840 27281.882 13070 1.0000
38.6880 29398.472 14084 1.0000
38.6920 32329.135 15488 1.0000
38.6960 35558.291 17035 1.0000
38.7000 38881.379 18627 1.0000
38.7040 41690.974 19973 1.0000
38.7080 42765.968 20488 1.0000
38.7120 42505.047 20363 1.0000
38.7160 40682.776 19490 1.0000
38.7200 37219.835 17831 1.0000
38.7240 32640.153 15637 1.0000
38.7280 27509.405 13179 1.0000
38.7320 22535.211 10796 1.0000
38.7360 18650.621 8935 1.0000
38.7400 15548.794 7449 1.0000
38.7440 12580.559 6027 1.0000
38.7480 10597.561 5077 1.0000
38.7520 8783.639 4208 1.0000
38.7560 7648.111 3664 1.0000
38.7600 6742.194 3230 1.0000
38.7640 5882.199 2818 1.0000
38.7680 5374.969 2575 1.0000
38.7720 5043.078 2416 1.0000
38.7760 4398.082 2107 1.0000
38.7800 4078.714 1954 1.0000
38.7840 4001.482 1917 1.0000
38.7880 3723.862 1784 1.0000
38.7920 3419.107 1638 1.0000
38.7960 3304.301 1583 1.0000
38.8000 3166.535 1517 1.0000
38.8040 2918.139 1398 1.0000
38.8080 2838.819 1360 1.0000
38.8120 2684.354 1286 1.0000
38.8160 2534.063 1214 1.0000
38.8200 2559.112 1226 1.0000
38.8240 2500.665 1198 1.0000
38.8280 2515.277 1205 1.0000
38.8320 2412.996 1156 1.0000
38.8360 2364.986 1133 1.0000
38.8400 2310.715 1107 1.0000
38.8440 2250.181 1078 1.0000
38.8480 2250.181 1078 1.0000
38.8520 2208.434 1058 1.0000
38.8560 2187.560 1048 1.0000
38.8600 2166.687 1038 1.0000
38.8640 2091.541 1002 1.0000
38.8680 1974.649 946.0000 1.0000
38.8720 1914.115 917.0000 1.0000
38.8760 1926.639 923.0000 1.0000
38.8800 1884.892 903.0000 1.0000
38.8840 1826.446 875.0000 1.0000
38.8880 1780.524 853.0000 1.0000
38.8920 1709.553 819.0000 1.0000
38.8960 1699.116 814.0000 1.0000
38.9000 1701.204 815.0000 1.0000
38.9040 1669.893 800.0000 1.0000
38.9080 1630.233 781.0000 1.0000
38.9120 1657.369 794.0000 1.0000
38.9160 1615.622 774.0000 1.0000
38.9200 1527.952 732.0000 1.0000
38.9240 1557.176 746.0000 1.0000
38.9280 1536.302 736.0000 1.0000
38.9320 1544.651 740.0000 1.0000
38.9360 1465.331 702.0000 1.0000
38.9400 1513.341 725.0000 1.0000
38.9440 1444.458 692.0000 1.0000
38.9480 1482.030 710.0000 1.0000
38.9520 1408.972 675.0000 1.0000
38.9560 1415.235 678.0000 1.0000
38.9600 1431.934 686.0000 1.0000
38.9640 1381.837 662.0000 1.0000
38.9680 1375.575 659.0000 1.0000
38.9720 1408.972 675.0000 1.0000
38.9760 1411.060 676.0000 1.0000
38.9800 1369.313 656.0000 1.0000
38.9840 1365.138 654.0000 1.0000
38.9880 1289.993 618.0000 1.0000
38.9920 1371.400 657.0000 1.0000
38.9960 1340.089 642.0000 1.0000
39.0000 1335.915 640.0000 1.0000
39.0040 1377.662 660.0000 1.0000
39.0080 1338.002 641.0000 1.0000
39.0120 1373.487 658.0000 1.0000
39.0160 1379.749 661.0000 1.0000
39.0200 1306.692 626.0000 1.0000
39.0240 1304.604 625.0000 1.0000
39.0280 1310.866 628.0000 1.0000
39.0320 1312.954 629.0000 1.0000
39.0360 1340.089 642.0000 1.0000
39.0400 1315.041 630.0000 1.0000
39.0440 1269.119 608.0000 1.0000
39.0480 1246.158 597.0000 1.0000
39.0520 1304.604 625.0000 1.0000
39.0560 1292.080 619.0000 1.0000
39.0600 1256.595 602.0000 1.0000
39.0640 1216.935 583.0000 1.0000
39.0680 1237.808 593.0000 1.0000
39.0720 1252.420 600.0000 1.0000
39.0760 1289.993 618.0000 1.0000
39.0800 1271.206 609.0000 1.0000
39.0840 1277.468 612.0000 1.0000
39.0880 1250.333 599.0000 1.0000
39.0920 1289.993 618.0000 1.0000
39.0960 1275.381 611.0000 1.0000
39.1000 1277.468 612.0000 1.0000
39.1040 1248.245 598.0000 1.0000
39.1080 1277.468 612.0000 1.0000
39.1120 1269.119 608.0000 1.0000
39.1160 1233.634 591.0000 1.0000
39.1200 1216.935 583.0000 1.0000
39.1240 1273.294 610.0000 1.0000
39.1280 1271.206 609.0000 1.0000
39.1320 1237.808 593.0000 1.0000
39.1360 1269.119 608.0000 1.0000
39.1400 1198.148 574.0000 1.0000
39.1440 1214.847 582.0000 1.0000
39.1480 1229.459 589.0000 1.0000
39.1520 1264.944 606.0000 1.0000
39.1560 1241.983 595.0000 1.0000
39.1600 1196.061 573.0000 1.0000
39.1640 1256.595 602.0000 1.0000
39.1680 1216.935 583.0000 1.0000
39.1720 1204.411 577.0000 1.0000
39.1760 1292.080 619.0000 1.0000
39.1800 1185.624 568.0000 1.0000
39.1840 1189.799 570.0000 1.0000
39.1880 1244.071 596.0000 1.0000
39.1920 1164.751 558.0000 1.0000
39.1960 1177.275 564.0000 1.0000
39.2000 1162.663 557.0000 1.0000
39.2040 1219.022 584.0000 1.0000
39.2080 1206.498 578.0000 1.0000
39.2120 1219.022 584.0000 1.0000
39.2160 1208.585 579.0000 1.0000
39.2200 1187.712 569.0000 1.0000
39.2240 1219.022 584.0000 1.0000
39.2280 1202.323 576.0000 1.0000
39.2320 1202.323 576.0000 1.0000
39.2360 1221.110 585.0000 1.0000
39.2400 1219.022 584.0000 1.0000
39.2440 1239.896 594.0000 1.0000
39.2480 1248.245 598.0000 1.0000
39.2520 1156.401 554.0000 1.0000
39.2560 1125.091 539.0000 1.0000
39.2600 1164.751 558.0000 1.0000
39.2640 1171.013 561.0000 1.0000
39.2680 1152.226 552.0000 1.0000
39.2720 1133.440 543.0000 1.0000
39.2760 1173.100 562.0000 1.0000
39.2800 1191.886 571.0000 1.0000
39.2840 1137.615 545.0000 1.0000
39.2880 1239.896 594.0000 1.0000
39.2920 1219.022 584.0000 1.0000
39.2960 1200.236 575.0000 1.0000
39.3000 1237.808 593.0000 1.0000
39.3040 1189.799 570.0000 1.0000
39.3080 1133.440 543.0000 1.0000
39.3120 1143.877 548.0000 1.0000
39.3160 1135.527 544.0000 1.0000
39.3200 1164.751 558.0000 1.0000
39.3240 1196.061 573.0000 1.0000
39.3280 1131.353 542.0000 1.0000
39.3320 1177.275 564.0000 1.0000
39.3360 1168.925 560.0000 1.0000
39.3400 1123.003 538.0000 1.0000
39.3440 1150.139 551.0000 1.0000
39.3480 1185.624 568.0000 1.0000
39.3520 1208.585 579.0000 1.0000
39.3560 1123.003 538.0000 1.0000
39.3600 1171.013 561.0000 1.0000
39.3640 1175.187 563.0000 1.0000
39.3680 1125.091 539.0000 1.0000
39.3720 1070.819 513.0000 1.0000
39.3760 1123.003 538.0000 1.0000
39.3800 1085.431 520.0000 1.0000
39.3840 1127.178 540.0000 1.0000
39.3880 1100.042 527.0000 1.0000
39.3920 1095.868 525.0000 1.0000
39.3960 1095.868 525.0000 1.0000
39.4000 1077.081 516.0000 1.0000
39.4040 1095.868 525.0000 1.0000
39.4080 1129.265 541.0000 1.0000
39.4120 1104.217 529.0000 1.0000
39.4160 1123.003 538.0000 1.0000
39.4200 1085.431 520.0000 1.0000
39.4240 1110.479 532.0000 1.0000
39.4280 1164.751 558.0000 1.0000
39.4320 1066.644 511.0000 1.0000
39.4360 1049.945 503.0000 1.0000
39.4400 1139.702 546.0000 1.0000
39.4440 1189.799 570.0000 1.0000
39.4480 1145.964 549.0000 1.0000
39.4520 1104.217 529.0000 1.0000
39.4560 1100.042 527.0000 1.0000
39.4600 1108.392 531.0000 1.0000
39.4640 1127.178 540.0000 1.0000
39.4680 1120.916 537.0000 1.0000
39.4720 1089.605 522.0000 1.0000
39.4760 1162.663 557.0000 1.0000
39.4800 1175.187 563.0000 1.0000
39.4840 1158.488 555.0000 1.0000
39.4880 1102.130 528.0000 1.0000
39.4920 1118.829 536.0000 1.0000
39.4960 1123.003 538.0000 1.0000
39.5000 1129.265 541.0000 1.0000
39.5040 1129.265 541.0000 1.0000
39.5080 1102.130 528.0000 1.0000
39.5120 1145.964 549.0000 1.0000
39.5160 1118.829 536.0000 1.0000
39.5200 1104.217 529.0000 1.0000
39.5240 1083.343 519.0000 1.0000
39.5280 1072.906 514.0000 1.0000
39.5320 1091.693 523.0000 1.0000
39.5360 1129.265 541.0000 1.0000
39.5400 1125.091 539.0000 1.0000
39.5440 1129.265 541.0000 1.0000
39.5480 1072.906 514.0000 1.0000
39.5520 1093.780 524.0000 1.0000
39.5560 1118.829 536.0000 1.0000
39.5600 1120.916 537.0000 1.0000
39.5640 1083.343 519.0000 1.0000
39.5680 1029.072 493.0000 1.0000
39.5720 1045.771 501.0000 1.0000
39.5760 1064.557 510.0000 1.0000
39.5800 1118.829 536.0000 1.0000
39.5840 1116.741 535.0000 1.0000
39.5880 1104.217 529.0000 1.0000
39.5920 1070.819 513.0000 1.0000
39.5960 1072.906 514.0000 1.0000
39.6000 1068.732 512.0000 1.0000
39.6040 1085.431 520.0000 1.0000
39.6080 1106.304 530.0000 1.0000
39.6120 1074.994 515.0000 1.0000
39.6160 1039.509 498.0000 1.0000
39.6200 1074.994 515.0000 1.0000
39.6240 1148.052 550.0000 1.0000
39.6280 1141.790 547.0000 1.0000
39.6320 1095.868 525.0000 1.0000
39.6360 1127.178 540.0000 1.0000
39.6400 1037.421 497.0000 1.0000
39.6440 1016.548 487.0000 1.0000
39.6480 1108.392 531.0000 1.0000
39.6520 1120.916 537.0000 1.0000
39.6560 1104.217 529.0000 1.0000
39.6600 1110.479 532.0000 1.0000
39.6640 1131.353 542.0000 1.0000
39.6680 1058.295 507.0000 1.0000
39.6720 1093.780 524.0000 1.0000
39.6760 1123.003 538.0000 1.0000
39.6800 1127.178 540.0000 1.0000
39.6840 1085.431 520.0000 1.0000
39.6880 1083.343 519.0000 1.0000
39.6920 1052.033 504.0000 1.0000
39.6960 1118.829 536.0000 1.0000
39.7000 1074.994 515.0000 1.0000
39.7040 1066.644 511.0000 1.0000
39.7080 1152.226 552.0000 1.0000
39.7120 1139.702 546.0000 1.0000
39.7160 1079.169 517.0000 1.0000
39.7200 1068.732 512.0000 1.0000
39.7240 1074.994 515.0000 1.0000
39.7280 1091.693 523.0000 1.0000
39.7320 1093.780 524.0000 1.0000
39.7360 1089.605 522.0000 1.0000
39.7400 1060.382 508.0000 1.0000
39.7440 1064.557 510.0000 1.0000
39.7480 1123.003 538.0000 1.0000
39.7520 1039.509 498.0000 1.0000
39.7560 1091.693 523.0000 1.0000
39.7600 1085.431 520.0000 1.0000
39.7640 1012.373 485.0000 1.0000
39.7680 1077.081 516.0000 1.0000
39.7720 1091.693 523.0000 1.0000
39.7760 1066.644 511.0000 1.0000
39.7800 1066.644 511.0000 1.0000
39.7840 1043.683 500.0000 1.0000
39.7880 981.062 470.0000 1.0000
39.7920 1125.091 539.0000 1.0000
39.7960 1129.265 541.0000 1.0000
39.8000 1049.945 503.0000 1.0000
39.8040 1060.382 508.0000 1.0000
39.8080 1060.382 508.0000 1.0000
39.8120 1087.518 521.0000 1.0000
39.8160 1077.081 516.0000 1.0000
39.8200 1016.548 487.0000 1.0000
39.8240 1029.072 493.0000 1.0000
39.8280 1118.829 536.0000 1.0000
39.8320 1039.509 498.0000 1.0000
39.8360 1066.644 511.0000 1.0000
39.8400 1104.217 529.0000 1.0000
39.8440 1056.208 506.0000 1.0000
39.8480 1018.635 488.0000 1.0000
39.8520 1006.111 482.0000 1.0000
39.8560 1085.431 520.0000 1.0000
39.8600 1041.596 499.0000 1.0000
39.8640 1085.431 520.0000 1.0000
39.8680 1106.304 530.0000 1.0000
39.8720 1031.159 494.0000 1.0000
39.8760 1064.557 510.0000 1.0000
39.8800 1093.780 524.0000 1.0000
39.8840 1068.732 512.0000 1.0000
39.8880 1035.334 496.0000 1.0000
39.8920 1020.722 489.0000 1.0000
39.8960 1041.596 499.0000 1.0000
39.9000 1031.159 494.0000 1.0000
39.9040 1054.120 505.0000 1.0000
39.9080 1037.421 497.0000 1.0000
39.9120 1026.984 492.0000 1.0000
39.9160 1052.033 504.0000 1.0000
39.9200 1014.460 486.0000 1.0000
39.9240 1010.285 484.0000 1.0000
39.9280 1056.208 506.0000 1.0000
39.9320 993.587 476.0000 1.0000
39.9360 1020.722 489.0000 1.0000
39.9400 1045.771 501.0000 1.0000
39.9440 1054.120 505.0000 1.0000
39.9480 1120.916 537.0000 1.0000
39.9520 1077.081 516.0000 1.0000
39.9560 1056.208 506.0000 1.0000
39.9600 1108.392 531.0000 1.0000
39.9640 1056.208 506.0000 1.0000
39.9680 1029.072 493.0000 1.0000
39.9720 1049.945 503.0000 1.0000
39.9760 995.674 477.0000 1.0000
39.9800 1024.897 491.0000 1.0000
39.9840 1062.470 509.0000 1.0000
39.9880 1062.470 509.0000 1.0000
39.9920 976.888 468.0000 1.0000
39.9960 1043.683 500.0000 1.0000
40.0000 1049.945 503.0000 1.0000